"","view_history","rt","trial_type","trial_index","time_elapsed","internal_node_id","subject","broswerLang","country_code","stimulus","key_press","stimulus_type","correct","button_pressed","responses","locations","left_object","right_object","activate","box","startTime","endTime","RT","choice","sameSide","samePair","diffPair","answer_correct","unique","unique_color","unique_position","init_locations","moves","final_locations","passed"
"1","[{""page_index"":0,""viewing_time"":1683.1700000038836}]","1683.6650000041118","instructions","0","1704","0.0-0.0",1,"en-US","US","","","","","","","","","","","","","","","","","","","","","","","","","",""
"2","","1858","audio-keyboard-response","1","5566","0.0-1.0",1,"en-US","US","sound/six_M.mp3","54","congruent","true","","","","","","","","","","","","","","","","","","","","","",""
"3","","null","video-button-response","2","19077","0.0-2.0",1,"en-US","US","","","","","null","","","","","","","","","","","","","","","","","","","","",""
"4","","null","video-button-response","3","33568","0.0-3.0",1,"en-US","US","","","","","null","","","","","","","","","","","","","","","","","","","","",""
"5","[{""page_index"":0,""viewing_time"":2213}]","2214","task-instructions","4","35783","0.0-4.0",1,"en-US","US","","","","","","","","","","","","","","","","","","","","","","","","","",""
"6","","null","video-button-response","5","112912","0.0-5.0",1,"en-US","US","","","","","null","","","","","","","","","","","","","","","","","","","","",""
"7","","11603.25999998895","survey-text","6","124520","0.0-6.0",1,"en-US","US","","","","","","{""Q0"":""她胆小鬼""}","","","","","","","","","","","","","","","","","","","",""
"8","","6902.3550000129035","survey-text","7","131426","0.0-7.0",1,"en-US","US","","","","","","{""Q0"":""超危险""}","","","","","","","","","","","","","","","","","","","",""
"9","","null","video-button-response","8","141171","0.0-8.0",1,"en-US","US","","","","","null","","","","","","","","","","","","","","","","","","","","",""
"10","","4613.635000001523","draw-circles","9","145787","0.0-9.0",1,"en-US","US","","","","","","","[{""label"":""circle0"",""x"":229,""y"":195,""radius"":56.4003546088143},{""label"":""circle1"",""x"":544,""y"":546,""radius"":59.36328831862332}]","","","","","","","","","","","","","","","","","","",""
"11","","6963.945000010426","survey-text","10","152757","0.0-10.0",1,"en-US","US","","","","","","{""Q0"":""妈妈"",""Q1"":""爸爸"",""Q2"":"""",""Q3"":"""",""Q4"":"""",""Q5"":"""",""Q6"":""""}","","","","","","","","","","","","","","","","","","","",""
"12","","5646.07000000251","draw-circles","11","158405","0.0-11.0",1,"en-US","US","","","","","","","[{""label"":""circle0"",""x"":216,""y"":2,""radius"":2.23606797749979},{""label"":""circle1"",""x"":244,""y"":94,""radius"":89.49860334105779},{""label"":""circle2"",""x"":405,""y"":281,""radius"":76.83749084919418},{""label"":""circle3"",""x"":637,""y"":269,""radius"":91.83681179135085}]","","","","","","","","","","","","","","","","","","",""
"13","","null","video-button-response","12","168843","0.0-12.0",1,"en-US","US","","","","","null","","","","","","","","","","","","","","","","","","","","",""
"14","[{""page_index"":0,""viewing_time"":1776.5650000073947},{""page_index"":1,""viewing_time"":623.3749999955762},{""page_index"":2,""viewing_time"":1744.1400000097929},{""page_index"":3,""viewing_time"":2199.974999995902}]","6344.855000003008","instructions","13","175188","0.0-13.0",1,"en-US","US","","","","","","","","","","","","","","","","","","","","","","","","","",""
"15","","","RMTStrain","14","188230","0.0-14.0",1,"en-US","US","","","","","","","","img/d.png","img/k.png","true","img/box.png","1596925406683","1596925417722","","","","","","","","","","","","",""
"16","","","RMTStrain","15","201260","0.0-15.0",1,"en-US","US","","","","","","","","img/g.png","img/g.png","false","img/box.png","1596925417722","1596925430752","","","","","","","","","","","","",""
"17","","","RMTStrain","16","212282","0.0-16.0",1,"en-US","US","","","","","","","","img/l.png","img/d.png","true","img/box.png","1596925430753","1596925441774","","","","","","","","","","","","",""
"18","","","RMTStrain","17","226741","0.0-17.0",1,"en-US","US","","","","","","","","img/b.png","img/b.png","false","img/box.png","1596925441775","1596925456233","","","","","","","","","","","","",""
"19","[{""page_index"":0,""viewing_time"":2163.63999999885},{""page_index"":1,""viewing_time"":2001.1999999987893},{""page_index"":2,""viewing_time"":2021.7350000020815}]","6186.835000000428","instructions","18","232929","0.0-18.0",1,"en-US","US","","","","","","","","","","","","","","","","","","","","","","","","","",""
"20","","","RMTStest","19","236953","0.0-19.0",1,"en-US","US","","","","","","","","","","","img/box.png","1596925464422","","-1596925225049.09","rightTestButton","R","img/d.png,img/d.png","img/a.png,img/f.png","","","","","","","",""
"21","","","RMTStest","20","238646","0.0-20.0",1,"en-US","US","","","","","","","","","","","img/box.png","1596925466446","","-1596925225379.905","leftTestButton","R","img/d.png,img/d.png","img/j.png,img/c.png","","","","","","","",""
"22","","","RMTStest","21","239851","0.0-21.0",1,"en-US","US","","","","","","","","","","","img/box.png","1596925468139","","-1596925225867.73","rightTestButton","L","img/d.png,img/d.png","img/o.png,img/m.png","","","","","","","",""
"23","","","RMTStest","22","241275","0.0-22.0",1,"en-US","US","","","","","","","","","","","img/box.png","1596925469344","","-1596925225649.555","leftTestButton","L","img/d.png,img/d.png","img/e.png,img/i.png","","","","","","","",""
"24","","null","video-button-response","23","249123","0.0-23.0",1,"en-US","US","","","","","null","","","","","","","","","","","","","","","","","","","","",""
"25","[{""page_index"":0,""viewing_time"":2312.1099999989383},{""page_index"":1,""viewing_time"":1091.5700000041397},{""page_index"":2,""viewing_time"":1173.0249999964144},{""page_index"":3,""viewing_time"":1147.4300000118092},{""page_index"":4,""viewing_time"":732.5849999906495},{""page_index"":5,""viewing_time"":915.8800000004703},{""page_index"":6,""viewing_time"":879.2050000047311}]","8252.080000005662","instructions","24","257376","0.0-24.0",1,"en-US","US","","","","","","","","","","","","","","","","","","","","","","","","","",""
"26","[{""page_index"":0,""viewing_time"":1255}]","1256","task-instructions","25","258633","0.0-25.0",1,"en-US","US","","","","","","","","","","","","","","","","","","","","","","","","","",""
"27","","1593.5500000050524","ebbinghaus-keyboard","26","262233","0.0-26.0-0.0",1,"en-US","US","images/ebb_illu/Practice_80_125.jpg","77","","","","","","","","","","","","","","","","","999","","","","","","",""
"28","","767.0300000027055","ebbinghaus-keyboard","27","265003","0.0-27.0-0.0",1,"en-US","US","images/ebb_illu/Practice_125_80.jpg","90","","","","","","","","","","","","","","","","","999","","","","","","",""
"29","[{""page_index"":0,""viewing_time"":1672}]","1673","task-instructions","28","266677","0.0-28.0",1,"en-US","US","","","","","","","","","","","","","","","","","","","","","","","","","",""
"30","","1784.9249999999302","ebbinghaus-keyboard","29","268464","0.0-29.0-0.0",1,"en-US","US","images/ebb_illu/N_100_102.jpg","77","","","","","","","","","","","","","","","","","1","","","","","","",""
"31","","null","image-keyboard-response","30","268670","0.0-29.0-1.0",1,"en-US","US","images/ebb_illu/mask/mask6.png","null","","","","","","","","","","","","","","","","","","","","","","","",""
"32","","null","image-keyboard-response","31","269672","0.0-29.0-2.0",1,"en-US","US","images/ebb_illu/mask/empty.jpeg","null","","","","","","","","","","","","","","","","","","","","","","","",""
"33","","1293.3049999992363","ebbinghaus-keyboard","32","270967","0.0-29.0-0.1",1,"en-US","US","images/ebb_illu/N_114_100.jpg","90","","","","","","","","","","","","","","","","","1","","","","","","",""
"34","","null","image-keyboard-response","33","271171","0.0-29.0-1.1",1,"en-US","US","images/ebb_illu/mask/mask4.png","null","","","","","","","","","","","","","","","","","","","","","","","",""
"35","","null","image-keyboard-response","34","272175","0.0-29.0-2.1",1,"en-US","US","images/ebb_illu/mask/empty.jpeg","null","","","","","","","","","","","","","","","","","","","","","","","",""
"36","","741.3499999966007","ebbinghaus-keyboard","35","272917","0.0-29.0-0.2",1,"en-US","US","images/ebb_illu/N_106_100.jpg","77","","","","","","","","","","","","","","","","","0","","","","","","",""
"37","","null","image-keyboard-response","36","273123","0.0-29.0-1.2",1,"en-US","US","images/ebb_illu/mask/mask4.png","null","","","","","","","","","","","","","","","","","","","","","","","",""
"38","","null","image-keyboard-response","37","274129","0.0-29.0-2.2",1,"en-US","US","images/ebb_illu/mask/empty.jpeg","null","","","","","","","","","","","","","","","","","","","","","","","",""
"39","","1046.8800000089686","ebbinghaus-keyboard","38","275178","0.0-29.0-0.3",1,"en-US","US","images/ebb_illu/N_100_94.jpg","90","","","","","","","","","","","","","","","","","1","","","","","","",""
"40","","null","image-keyboard-response","39","275380","0.0-29.0-1.3",1,"en-US","US","images/ebb_illu/mask/mask4.png","null","","","","","","","","","","","","","","","","","","","","","","","",""
"41","","null","image-keyboard-response","40","276386","0.0-29.0-2.3",1,"en-US","US","images/ebb_illu/mask/empty.jpeg","null","","","","","","","","","","","","","","","","","","","","","","","",""
"42","","519.1299999860348","ebbinghaus-keyboard","41","276906","0.0-29.0-0.4",1,"en-US","US","images/ebb_illu/N_90_100.jpg","77","","","","","","","","","","","","","","","","","1","","","","","","",""
"43","","null","image-keyboard-response","42","277110","0.0-29.0-1.4",1,"en-US","US","images/ebb_illu/mask/mask1.png","null","","","","","","","","","","","","","","","","","","","","","","","",""
"44","","null","image-keyboard-response","43","278112","0.0-29.0-2.4",1,"en-US","US","images/ebb_illu/mask/empty.jpeg","null","","","","","","","","","","","","","","","","","","","","","","","",""
"45","","467.1749999979511","ebbinghaus-keyboard","44","278580","0.0-29.0-0.5",1,"en-US","US","images/ebb_illu/N_82_100.jpg","90","","","","","","","","","","","","","","","","","0","","","","","","",""
"46","","null","image-keyboard-response","45","278781","0.0-29.0-1.5",1,"en-US","US","images/ebb_illu/mask/mask5.png","null","","","","","","","","","","","","","","","","","","","","","","","",""
"47","","null","image-keyboard-response","46","279786","0.0-29.0-2.5",1,"en-US","US","images/ebb_illu/mask/empty.jpeg","null","","","","","","","","","","","","","","","","","","","","","","","",""
"48","","687.4649999954272","ebbinghaus-keyboard","47","280475","0.0-29.0-0.6",1,"en-US","US","images/ebb_illu/N_98_100.jpg","77","","","","","","","","","","","","","","","","","1","","","","","","",""
"49","","null","image-keyboard-response","48","280679","0.0-29.0-1.6",1,"en-US","US","images/ebb_illu/mask/mask5.png","null","","","","","","","","","","","","","","","","","","","","","","","",""
"50","","null","image-keyboard-response","49","281680","0.0-29.0-2.6",1,"en-US","US","images/ebb_illu/mask/empty.jpeg","null","","","","","","","","","","","","","","","","","","","","","","","",""
"51","","438.9499999961117","ebbinghaus-keyboard","50","282120","0.0-29.0-0.7",1,"en-US","US","images/ebb_illu/N_100_118.jpg","77","","","","","","","","","","","","","","","","","1","","","","","","",""
"52","","null","image-keyboard-response","51","282325","0.0-29.0-1.7",1,"en-US","US","images/ebb_illu/mask/mask5.png","null","","","","","","","","","","","","","","","","","","","","","","","",""
"53","","null","image-keyboard-response","52","283329","0.0-29.0-2.7",1,"en-US","US","images/ebb_illu/mask/empty.jpeg","null","","","","","","","","","","","","","","","","","","","","","","","",""
"54","","371.06499999936204","ebbinghaus-keyboard","53","283701","0.0-29.0-0.8",1,"en-US","US","images/ebb_illu/N_100_86.jpg","77","","","","","","","","","","","","","","","","","0","","","","","","",""
"55","","null","image-keyboard-response","54","283903","0.0-29.0-1.8",1,"en-US","US","images/ebb_illu/mask/mask1.png","null","","","","","","","","","","","","","","","","","","","","","","","",""
"56","","null","image-keyboard-response","55","284908","0.0-29.0-2.8",1,"en-US","US","images/ebb_illu/mask/empty.jpeg","null","","","","","","","","","","","","","","","","","","","","","","","",""
"57","","1119.7300000058021","ebbinghaus-keyboard","56","286029","0.0-29.0-0.9",1,"en-US","US","images/ebb_illu/N_100_110.jpg","90","","","","","","","","","","","","","","","","","0","","","","","","",""
"58","","null","image-keyboard-response","57","286235","0.0-29.0-1.9",1,"en-US","US","images/ebb_illu/mask/mask7.png","null","","","","","","","","","","","","","","","","","","","","","","","",""
"59","","null","image-keyboard-response","58","287241","0.0-29.0-2.9",1,"en-US","US","images/ebb_illu/mask/empty.jpeg","null","","","","","","","","","","","","","","","","","","","","","","","",""
"60","","712.7299999992829","ebbinghaus-keyboard","59","287955","0.0-29.0-0.10",1,"en-US","US","images/ebb_illu/N_114_100.jpg","77","","","","","","","","","","","","","","","","","0","","","","","","",""
"61","","null","image-keyboard-response","60","288156","0.0-29.0-1.10",1,"en-US","US","images/ebb_illu/mask/mask2.png","null","","","","","","","","","","","","","","","","","","","","","","","",""
"62","","null","image-keyboard-response","61","289157","0.0-29.0-2.10",1,"en-US","US","images/ebb_illu/mask/empty.jpeg","null","","","","","","","","","","","","","","","","","","","","","","","",""
"63","[{""page_index"":0,""viewing_time"":1537.1850000083214},{""page_index"":1,""viewing_time"":808.6250000051223},{""page_index"":2,""viewing_time"":662.1849999937695},{""page_index"":3,""viewing_time"":523.3449999941513},{""page_index"":4,""viewing_time"":421.0750000056578},{""page_index"":5,""viewing_time"":435.00500000664033},{""page_index"":6,""viewing_time"":486.03000000002794},{""page_index"":7,""viewing_time"":469.07499998633284},{""page_index"":8,""viewing_time"":501.75000001036096},{""page_index"":9,""viewing_time"":585.1200000033714}]","6429.665000003297","instructions","62","295588","0.0-30.0",1,"en-US","US","","","","","","","","","","","","","","","","","","","","","","","","","",""
"64","[{""page_index"":0,""viewing_time"":1354}]","1354","task-instructions","63","296942","0.0-31.0",1,"en-US","US","","","","","","","","","","","","","","","","","","","","","","","","","",""
"65","","1212.0600000052946","ebbinghaus-keyboard","64","300158","0.0-32.0-0.0",1,"en-US","US","images/ebb_illu/Practice_70-125_102-50.jpg","77","","","","","","","","","","","","","","","","","999","","","","","","",""
"66","[{""page_index"":0,""viewing_time"":1465}]","1465","task-instructions","65","301624","0.0-33.0",1,"en-US","US","","","","","","","","","","","","","","","","","","","","","","","","","",""
"67","","1506.0950000042794","ebbinghaus-keyboard","66","303131","0.0-34.0-0.0",1,"en-US","US","images/ebb_illu/I_118-125_100-50.jpg","77","","","","","","","","","","","","","","","","","0","","","","","","",""
"68","","null","image-keyboard-response","67","303333","0.0-34.0-1.0",1,"en-US","US","images/ebb_illu/mask/mask2.png","null","","","","","","","","","","","","","","","","","","","","","","","",""
"69","","null","image-keyboard-response","68","304338","0.0-34.0-2.0",1,"en-US","US","images/ebb_illu/mask/empty.jpeg","null","","","","","","","","","","","","","","","","","","","","","","","",""
"70","","1145.829999994021","ebbinghaus-keyboard","69","305487","0.0-34.0-0.1",1,"en-US","US","images/ebb_illu/I_114-125_100-50.jpg","77","","","","","","","","","","","","","","","","","0","","","","","","",""
"71","","null","image-keyboard-response","70","305692","0.0-34.0-1.1",1,"en-US","US","images/ebb_illu/mask/mask3.png","null","","","","","","","","","","","","","","","","","","","","","","","",""
"72","","null","image-keyboard-response","71","306695","0.0-34.0-2.1",1,"en-US","US","images/ebb_illu/mask/empty.jpeg","null","","","","","","","","","","","","","","","","","","","","","","","",""
"73","","1139.1049999947427","ebbinghaus-keyboard","72","307835","0.0-34.0-0.2",1,"en-US","US","images/ebb_illu/I_86-50_100-125.jpg","90","","","","","","","","","","","","","","","","","0","","","","","","",""
"74","","null","image-keyboard-response","73","308037","0.0-34.0-1.2",1,"en-US","US","images/ebb_illu/mask/mask1.png","null","","","","","","","","","","","","","","","","","","","","","","","",""
"75","","null","image-keyboard-response","74","309040","0.0-34.0-2.2",1,"en-US","US","images/ebb_illu/mask/empty.jpeg","null","","","","","","","","","","","","","","","","","","","","","","","",""
"76","","1052.4749999894993","ebbinghaus-keyboard","75","310094","0.0-34.0-0.3",1,"en-US","US","images/ebb_illu/I_102-125_100-50.jpg","77","","","","","","","","","","","","","","","","","0","","","","","","",""
"77","","null","image-keyboard-response","76","310299","0.0-34.0-1.3",1,"en-US","US","images/ebb_illu/mask/mask6.png","null","","","","","","","","","","","","","","","","","","","","","","","",""
"78","","null","image-keyboard-response","77","311305","0.0-34.0-2.3",1,"en-US","US","images/ebb_illu/mask/empty.jpeg","null","","","","","","","","","","","","","","","","","","","","","","","",""
"79","","821.669999990263","ebbinghaus-keyboard","78","312129","0.0-34.0-0.4",1,"en-US","US","images/ebb_illu/H_100-125_102-50.jpg","77","","","","","","","","","","","","","","","","","1","","","","","","",""
"80","","null","image-keyboard-response","79","312334","0.0-34.0-1.4",1,"en-US","US","images/ebb_illu/mask/mask6.png","null","","","","","","","","","","","","","","","","","","","","","","","",""
"81","","null","image-keyboard-response","80","313336","0.0-34.0-2.4",1,"en-US","US","images/ebb_illu/mask/empty.jpeg","null","","","","","","","","","","","","","","","","","","","","","","","",""
"82","","649.8399999982212","ebbinghaus-keyboard","81","313988","0.0-34.0-0.5",1,"en-US","US","images/ebb_illu/I_100-125_86-50.jpg","90","","","","","","","","","","","","","","","","","1","","","","","","",""
"83","","null","image-keyboard-response","82","314189","0.0-34.0-1.5",1,"en-US","US","images/ebb_illu/mask/mask2.png","null","","","","","","","","","","","","","","","","","","","","","","","",""
"84","","null","image-keyboard-response","83","315193","0.0-34.0-2.5",1,"en-US","US","images/ebb_illu/mask/empty.jpeg","null","","","","","","","","","","","","","","","","","","","","","","","",""
"85","","472.88499999558553","ebbinghaus-keyboard","84","315668","0.0-34.0-0.6",1,"en-US","US","images/ebb_illu/I_82-50_100-125.jpg","77","","","","","","","","","","","","","","","","","1","","","","","","",""
"86","","null","image-keyboard-response","85","315873","0.0-34.0-1.6",1,"en-US","US","images/ebb_illu/mask/mask6.png","null","","","","","","","","","","","","","","","","","","","","","","","",""
"87","","null","image-keyboard-response","86","316878","0.0-34.0-2.6",1,"en-US","US","images/ebb_illu/mask/empty.jpeg","null","","","","","","","","","","","","","","","","","","","","","","","",""
"88","","1037.0399999956135","ebbinghaus-keyboard","87","317917","0.0-34.0-0.7",1,"en-US","US","images/ebb_illu/I_94-50_100-125.jpg","90","","","","","","","","","","","","","","","","","0","","","","","","",""
"89","","null","image-keyboard-response","88","318122","0.0-34.0-1.7",1,"en-US","US","images/ebb_illu/mask/mask5.png","null","","","","","","","","","","","","","","","","","","","","","","","",""
"90","","null","image-keyboard-response","89","319123","0.0-34.0-2.7",1,"en-US","US","images/ebb_illu/mask/empty.jpeg","null","","","","","","","","","","","","","","","","","","","","","","","",""
"91","","493.5949999926379","ebbinghaus-keyboard","90","319618","0.0-34.0-0.8",1,"en-US","US","images/ebb_illu/I_98-50_100-125.jpg","77","","","","","","","","","","","","","","","","","1","","","","","","",""
"92","","null","image-keyboard-response","91","319824","0.0-34.0-1.8",1,"en-US","US","images/ebb_illu/mask/mask7.png","null","","","","","","","","","","","","","","","","","","","","","","","",""
"93","","null","image-keyboard-response","92","320826","0.0-34.0-2.8",1,"en-US","US","images/ebb_illu/mask/empty.jpeg","null","","","","","","","","","","","","","","","","","","","","","","","",""
"94","","2744.5500000030734","ebbinghaus-keyboard","93","323571","0.0-34.0-0.9",1,"en-US","US","images/ebb_illu/I_90-50_100-125.jpg","90","","","","","","","","","","","","","","","","","0","","","","","","",""
"95","","null","image-keyboard-response","94","323775","0.0-34.0-1.9",1,"en-US","US","images/ebb_illu/mask/mask1.png","null","","","","","","","","","","","","","","","","","","","","","","","",""
"96","","null","image-keyboard-response","95","324777","0.0-34.0-2.9",1,"en-US","US","images/ebb_illu/mask/empty.jpeg","null","","","","","","","","","","","","","","","","","","","","","","","",""
"97","","911.7199999891454","ebbinghaus-keyboard","96","325691","0.0-34.0-0.10",1,"en-US","US","images/ebb_illu/H_100-50_98-125.jpg","90","","","","","","","","","","","","","","","","","1","","","","","","",""
"98","","null","image-keyboard-response","97","325896","0.0-34.0-1.10",1,"en-US","US","images/ebb_illu/mask/mask6.png","null","","","","","","","","","","","","","","","","","","","","","","","",""
"99","","null","image-keyboard-response","98","326900","0.0-34.0-2.10",1,"en-US","US","images/ebb_illu/mask/empty.jpeg","null","","","","","","","","","","","","","","","","","","","","","","","",""
"100","","989.9650000006659","ebbinghaus-keyboard","99","327891","0.0-34.0-0.11",1,"en-US","US","images/ebb_illu/H_102-50_100-125.jpg","90","","","","","","","","","","","","","","","","","1","","","","","","",""
"101","","null","image-keyboard-response","100","328092","0.0-34.0-1.11",1,"en-US","US","images/ebb_illu/mask/mask3.png","null","","","","","","","","","","","","","","","","","","","","","","","",""
"102","","null","image-keyboard-response","101","329094","0.0-34.0-2.11",1,"en-US","US","images/ebb_illu/mask/empty.jpeg","null","","","","","","","","","","","","","","","","","","","","","","","",""
"103","","1054.0150000015274","ebbinghaus-keyboard","102","330149","0.0-34.0-0.12",1,"en-US","US","images/ebb_illu/I_100-50_106-125.jpg","90","","","","","","","","","","","","","","","","","0","","","","","","",""
"104","","null","image-keyboard-response","103","330351","0.0-34.0-1.12",1,"en-US","US","images/ebb_illu/mask/mask4.png","null","","","","","","","","","","","","","","","","","","","","","","","",""
"105","","null","image-keyboard-response","104","331355","0.0-34.0-2.12",1,"en-US","US","images/ebb_illu/mask/empty.jpeg","null","","","","","","","","","","","","","","","","","","","","","","","",""
"106","","848.615000009886","ebbinghaus-keyboard","105","332205","0.0-34.0-0.13",1,"en-US","US","images/ebb_illu/I_110-125_100-50.jpg","77","","","","","","","","","","","","","","","","","0","","","","","","",""
"107","","null","image-keyboard-response","106","332410","0.0-34.0-1.13",1,"en-US","US","images/ebb_illu/mask/mask1.png","null","","","","","","","","","","","","","","","","","","","","","","","",""
"108","","null","image-keyboard-response","107","333416","0.0-34.0-2.13",1,"en-US","US","images/ebb_illu/mask/empty.jpeg","null","","","","","","","","","","","","","","","","","","","","","","","",""
"109","","857.4699999880977","ebbinghaus-keyboard","108","334275","0.0-34.0-0.14",1,"en-US","US","images/ebb_illu/H_98-125_100-50.jpg","77","","","","","","","","","","","","","","","","","1","","","","","","",""
"110","","null","image-keyboard-response","109","334478","0.0-34.0-1.14",1,"en-US","US","images/ebb_illu/mask/mask6.png","null","","","","","","","","","","","","","","","","","","","","","","","",""
"111","","null","image-keyboard-response","110","335482","0.0-34.0-2.14",1,"en-US","US","images/ebb_illu/mask/empty.jpeg","null","","","","","","","","","","","","","","","","","","","","","","","",""
"112","","848.6399999965215","ebbinghaus-keyboard","111","336332","0.0-34.0-0.15",1,"en-US","US","images/ebb_illu/I_100-50_110-125.jpg","90","","","","","","","","","","","","","","","","","0","","","","","","",""
"113","","null","image-keyboard-response","112","336537","0.0-34.0-1.15",1,"en-US","US","images/ebb_illu/mask/mask3.png","null","","","","","","","","","","","","","","","","","","","","","","","",""
"114","","null","image-keyboard-response","113","337543","0.0-34.0-2.15",1,"en-US","US","images/ebb_illu/mask/empty.jpeg","null","","","","","","","","","","","","","","","","","","","","","","","",""
"115","","989.7000000055414","ebbinghaus-keyboard","114","338534","0.0-34.0-0.16",1,"en-US","US","images/ebb_illu/I_100-50_102-125.jpg","90","","","","","","","","","","","","","","","","","0","","","","","","",""
"116","","null","image-keyboard-response","115","338738","0.0-34.0-1.16",1,"en-US","US","images/ebb_illu/mask/mask5.png","null","","","","","","","","","","","","","","","","","","","","","","","",""
"117","","null","image-keyboard-response","116","339743","0.0-34.0-2.16",1,"en-US","US","images/ebb_illu/mask/empty.jpeg","null","","","","","","","","","","","","","","","","","","","","","","","",""
"118","","708.1800000014482","ebbinghaus-keyboard","117","340453","0.0-34.0-0.17",1,"en-US","US","images/ebb_illu/I_100-125_94-50.jpg","77","","","","","","","","","","","","","","","","","0","","","","","","",""
"119","","null","image-keyboard-response","118","340658","0.0-34.0-1.17",1,"en-US","US","images/ebb_illu/mask/mask5.png","null","","","","","","","","","","","","","","","","","","","","","","","",""
"120","","null","image-keyboard-response","119","341659","0.0-34.0-2.17",1,"en-US","US","images/ebb_illu/mask/empty.jpeg","null","","","","","","","","","","","","","","","","","","","","","","","",""
"121","","1432.3099999892293","ebbinghaus-keyboard","120","343092","0.0-34.0-0.18",1,"en-US","US","images/ebb_illu/I_100-125_98-50.jpg","77","","","","","","","","","","","","","","","","","0","","","","","","",""
"122","","null","image-keyboard-response","121","343296","0.0-34.0-1.18",1,"en-US","US","images/ebb_illu/mask/mask7.png","null","","","","","","","","","","","","","","","","","","","","","","","",""
"123","","null","image-keyboard-response","122","344300","0.0-34.0-2.18",1,"en-US","US","images/ebb_illu/mask/empty.jpeg","null","","","","","","","","","","","","","","","","","","","","","","","",""
"124","","613.1400000012945","ebbinghaus-keyboard","123","344915","0.0-34.0-0.19",1,"en-US","US","images/ebb_illu/I_100-125_90-50.jpg","90","","","","","","","","","","","","","","","","","1","","","","","","",""
"125","","null","image-keyboard-response","124","345117","0.0-34.0-1.19",1,"en-US","US","images/ebb_illu/mask/mask2.png","null","","","","","","","","","","","","","","","","","","","","","","","",""
"126","","null","image-keyboard-response","125","346123","0.0-34.0-2.19",1,"en-US","US","images/ebb_illu/mask/empty.jpeg","null","","","","","","","","","","","","","","","","","","","","","","","",""
"127","","496.9600000040373","ebbinghaus-keyboard","126","346621","0.0-34.0-0.20",1,"en-US","US","images/ebb_illu/I_100-125_82-50.jpg","77","","","","","","","","","","","","","","","","","0","","","","","","",""
"128","","null","image-keyboard-response","127","346822","0.0-34.0-1.20",1,"en-US","US","images/ebb_illu/mask/mask1.png","null","","","","","","","","","","","","","","","","","","","","","","","",""
"129","","null","image-keyboard-response","128","347824","0.0-34.0-2.20",1,"en-US","US","images/ebb_illu/mask/empty.jpeg","null","","","","","","","","","","","","","","","","","","","","","","","",""
"130","","481.3350000040373","ebbinghaus-keyboard","129","348307","0.0-34.0-0.21",1,"en-US","US","images/ebb_illu/I_106-125_100-50.jpg","77","","","","","","","","","","","","","","","","","0","","","","","","",""
"131","","null","image-keyboard-response","130","348509","0.0-34.0-1.21",1,"en-US","US","images/ebb_illu/mask/mask7.png","null","","","","","","","","","","","","","","","","","","","","","","","",""
"132","","null","image-keyboard-response","131","349513","0.0-34.0-2.21",1,"en-US","US","images/ebb_illu/mask/empty.jpeg","null","","","","","","","","","","","","","","","","","","","","","","","",""
"133","","428.0549999966752","ebbinghaus-keyboard","132","349943","0.0-34.0-0.22",1,"en-US","US","images/ebb_illu/I_100-50_118-125.jpg","90","","","","","","","","","","","","","","","","","0","","","","","","",""
"134","","null","image-keyboard-response","133","350148","0.0-34.0-1.22",1,"en-US","US","images/ebb_illu/mask/mask7.png","null","","","","","","","","","","","","","","","","","","","","","","","",""
"135","","null","image-keyboard-response","134","351154","0.0-34.0-2.22",1,"en-US","US","images/ebb_illu/mask/empty.jpeg","null","","","","","","","","","","","","","","","","","","","","","","","",""
"136","","358.49500000767875","ebbinghaus-keyboard","135","351513","0.0-34.0-0.23",1,"en-US","US","images/ebb_illu/I_100-50_114-125.jpg","77","","","","","","","","","","","","","","","","","1","","","","","","",""
"137","","null","image-keyboard-response","136","351717","0.0-34.0-1.23",1,"en-US","US","images/ebb_illu/mask/mask7.png","null","","","","","","","","","","","","","","","","","","","","","","","",""
"138","","null","image-keyboard-response","137","352720","0.0-34.0-2.23",1,"en-US","US","images/ebb_illu/mask/empty.jpeg","null","","","","","","","","","","","","","","","","","","","","","","","",""
"139","","null","video-button-response","138","365598","0.0-35.0",1,"en-US","US","","","","","null","","","","","","","","","","","","","","","","","","","","",""
"140","[{""page_index"":0,""viewing_time"":1746}]","1747","task-instructions","139","367346","0.0-36.0",1,"en-US","US","","","","","","","","","","","","","","","","","","","","","","","","","",""
"141","","null","image-keyboard-response","140","372349","0.0-37.0-0.0",1,"en-US","US","images/free_description/08-fish.jpg","null","","","","","","","","","","","","","","","","","","","","","","","",""
"142","","9608.099999997648","survey-text","141","381961","0.0-37.0-1.0-0.0",1,"en-US","US","","","","","","{""Q0"":""一条鱼，黄色的背景""}","","","","","","","","","","","","","","","","","","","",""
"143","","7929.220000005444","survey-text","142","391266","0.0-37.0-1.1-0.1",1,"en-US","US","","","","","","{""Q0"":""一条鱼，有黄色的背景。在水里""}","","","","","","","","","","","","","","","","","","","",""
"144","","null","image-keyboard-response","143","396271","0.0-37.0-0.1",1,"en-US","US","images/free_description/01-bird.jpg","null","","","","","","","","","","","","","","","","","","","","","","","",""
"145","","11871.484999996028","survey-text","144","408146","0.0-37.0-1.2-0.2",1,"en-US","US","","","","","","{""Q0"":""乌鸦站在一大堆石头前 背景很蓝""}","","","","","","","","","","","","","","","","","","","",""
"146","","null","image-keyboard-response","145","413150","0.0-37.0-0.2",1,"en-US","US","images/free_description/11-tiger.jpg","null","","","","","","","","","","","","","","","","","","","","","","","",""
"147","","8644.365000000107","survey-text","146","421798","0.0-37.0-1.3-0.3",1,"en-US","US","","","","","","{""Q0"":""特别胖的老虎站在河边 背后有杂草""}","","","","","","","","","","","","","","","","","","","",""
"148","","null","image-keyboard-response","147","426803","0.0-37.0-0.3",1,"en-US","US","images/free_description/09-plane.jpg","null","","","","","","","","","","","","","","","","","","","","","","","",""
"149","","9635.89000000502","survey-text","148","436443","0.0-37.0-1.4-0.4",1,"en-US","US","","","","","","{""Q0"":""飞机飞过水面 远处有建筑 和森林""}","","","","","","","","","","","","","","","","","","","",""
"150","","null","image-keyboard-response","149","441450","0.0-37.0-0.4",1,"en-US","US","images/free_description/02-boat-castle.jpg","null","","","","","","","","","","","","","","","","","","","","","","","",""
"151","","8337.20500000345","survey-text","150","449790","0.0-37.0-1.5-0.5",1,"en-US","US","","","","","","{""Q0"":""帆船在航行 背后是城堡 ""}","","","","","","","","","","","","","","","","","","","",""
"152","","null","image-keyboard-response","151","454796","0.0-37.0-0.5",1,"en-US","US","images/free_description/12-train-red.jpg","null","","","","","","","","","","","","","","","","","","","","","","","",""
"153","","10965.38999999757","survey-text","152","465765","0.0-37.0-1.6-0.6",1,"en-US","US","","","","","","{""Q0"":""复古式的火车正在缓缓驶出站台""}","","","","","","","","","","","","","","","","","","","",""
"154","","null","image-keyboard-response","153","470771","0.0-37.0-0.6",1,"en-US","US","images/free_description/10-squirrel.jpg","null","","","","","","","","","","","","","","","","","","","","","","","",""
"155","","9315.224999998463","survey-text","154","480090","0.0-37.0-1.7-0.7",1,"en-US","US","","","","","","{""Q0"":""很大的一个松鼠 背景是树和街心花园""}","","","","","","","","","","","","","","","","","","","",""
"156","","null","image-keyboard-response","155","485092","0.0-37.0-0.7",1,"en-US","US","images/free_description/05-cow-black.jpg","null","","","","","","","","","","","","","","","","","","","","","","","",""
"157","","6957.729999994626","survey-text","156","492053","0.0-37.0-1.8-0.8",1,"en-US","US","","","","","","{""Q0"":""一个奇怪的牛站在草原上""}","","","","","","","","","","","","","","","","","","","",""
"158","","null","image-keyboard-response","157","497057","0.0-37.0-0.8",1,"en-US","US","images/free_description/03-boat-river.jpg","null","","","","","","","","","","","","","","","","","","","","","","","",""
"159","","13889.144999993732","survey-text","158","510950","0.0-37.0-1.9-0.9",1,"en-US","US","","","","","","{""Q0"":""船停在县城的河里，水比较脏""}","","","","","","","","","","","","","","","","","","","",""
"160","","null","image-keyboard-response","159","515956","0.0-37.0-0.9",1,"en-US","US","images/free_description/04-car.jpg","null","","","","","","","","","","","","","","","","","","","","","","","",""
"161","","13592.814999996335","survey-text","160","529552","0.0-37.0-1.10-0.10",1,"en-US","US","","","","","","{""Q0"":""香港某地 一辆车停在前面 背景有大广告""}","","","","","","","","","","","","","","","","","","","",""
"162","","null","image-keyboard-response","161","534558","0.0-37.0-0.10",1,"en-US","US","images/free_description/14-cow-brown.jpg","null","","","","","","","","","","","","","","","","","","","","","","","",""
"163","","6245.810000007623","survey-text","162","540807","0.0-37.0-1.11-0.11",1,"en-US","US","","","","","","{""Q0"":""好像是个牛 站在秋天的山前""}","","","","","","","","","","","","","","","","","","","",""
"164","","null","image-keyboard-response","163","545810","0.0-37.0-0.11",1,"en-US","US","images/free_description/13-train-green.jpg","null","","","","","","","","","","","","","","","","","","","","","","","",""
"165","","13560.649999999441","survey-text","164","559374","0.0-37.0-1.12-0.12",1,"en-US","US","","","","","","{""Q0"":""绿皮火车慢慢行驶出站台 远处有建筑 蓝天白云""}","","","","","","","","","","","","","","","","","","","",""
"166","","null","image-keyboard-response","165","564380","0.0-37.0-0.12",1,"en-US","US","images/free_description/06-bike.jpg","null","","","","","","","","","","","","","","","","","","","","","","","",""
"167","","18265.32999999472","survey-text","166","582649","0.0-37.0-1.13-0.13",1,"en-US","US","","","","","","{""Q0"":""自行车停靠在草坪旁边 看上去是个高校""}","","","","","","","","","","","","","","","","","","","",""
"168","","null","image-keyboard-response","167","587651","0.0-37.0-0.13",1,"en-US","US","images/free_description/07-dog.jpg","null","","","","","","","","","","","","","","","","","","","","","","","",""
"169","","9327.490000010584","survey-text","168","596982","0.0-37.0-1.14-0.14",1,"en-US","US","","","","","","{""Q0"":""一个狗站在长椅前 尾巴很高""}","","","","","","","","","","","","","","","","","","","",""
"170","","2835","image-button-response","169","599822","0.0-38.0",1,"en-US","US","images/pen_choice/yellow_3.png","","","","3","","","","","","","","","","","","","","","yes","yellow","3","","","",""
"171","","null","video-button-response","170","607213","0.0-40.0-0.0",1,"en-US","US","","","","","null","","","","","","","","","","","","","","","","","","","","",""
"172","[{""page_index"":0,""viewing_time"":1882}]","1882","task-instructions","171","609096","0.0-41.0",1,"en-US","US","","","","","","","","","","","","","","","","","","","","","","","","","",""
"173","","3556.5150000038557","drag-and-draw-practice","172","615657","0.0-42.0-0.0",1,"en-US","US","","","","","","","","","","","","","","","","","","","","","","","[{""src"":""images/sort/practice_1.png"",""x"":-75,""y"":50},{""src"":""images/sort/practice_2.png"",""x"":-75,""y"":150},{""src"":""images/sort/practice_3.png"",""x"":-75,""y"":250}]","[{""src"":""images/sort/practice_1.png"",""x"":138,""y"":146}]","[{""src"":""images/sort/practice_1.png"",""x"":138,""y"":146},{""src"":""images/sort/practice_2.png"",""x"":-75,""y"":150},{""src"":""images/sort/practice_3.png"",""x"":-75,""y"":250}]","true"
"174","[{""page_index"":0,""viewing_time"":1313.7900000001537},{""page_index"":1,""viewing_time"":592.9250000044703},{""page_index"":2,""viewing_time"":438.19499999517575},{""page_index"":3,""viewing_time"":642.0500000094762},{""page_index"":4,""viewing_time"":1136.804999987362},{""page_index"":5,""viewing_time"":1067.0400000090012},{""page_index"":6,""viewing_time"":906.4999999973224}]","6097.93499999796","instructions","173","621757","0.0-43.0",1,"en-US","US","","","","","","","","","","","","","","","","","","","","","","","","","",""
"175","","16138.875000004191","drag-and-draw","174","637900","0.0-44.0",1,"en-US","US","","","","","","","","","","","","","","","","","","","","","","","[{""src"":""images/sort/1.png"",""x"":-100,""y"":0},{""src"":""images/sort/2.png"",""x"":-200,""y"":0},{""src"":""images/sort/3.png"",""x"":-185,""y"":60},{""src"":""images/sort/4.png"",""x"":-285,""y"":60},{""src"":""images/sort/5.png"",""x"":-20,""y"":150},{""src"":""images/sort/6.png"",""x"":-40,""y"":150},{""src"":""images/sort/7.png"",""x"":-100,""y"":150},{""src"":""images/sort/8.png"",""x"":-130,""y"":150},{""src"":""images/sort/9.png"",""x"":-180,""y"":150},{""src"":""images/sort/10.png"",""x"":-250,""y"":150},{""src"":""images/sort/11.png"",""x"":-270,""y"":150},{""src"":""images/sort/12.png"",""x"":-300,""y"":150},{""src"":""images/sort/13.png"",""x"":721.4,""y"":0},{""src"":""images/sort/14.png"",""x"":451.4,""y"":120},{""src"":""images/sort/15.png"",""x"":536.4,""y"":130},{""src"":""images/sort/16.png"",""x"":531.4,""y"":180},{""src"":""images/sort/17.png"",""x"":581.4,""y"":0},{""src"":""images/sort/18.png"",""x"":451.4,""y"":0},{""src"":""images/sort/19.png"",""x"":-40,""y"":200},{""src"":""images/sort/20.png"",""x"":-65,""y"":200},{""src"":""images/sort/21.png"",""x"":-90,""y"":200},{""src"":""images/sort/22.png"",""x"":-115,""y"":200},{""src"":""images/sort/23.png"",""x"":-140,""y"":200},{""src"":""images/sort/24.png"",""x"":-165,""y"":200},{""src"":""images/sort/25.png"",""x"":-190,""y"":200},{""src"":""images/sort/26.png"",""x"":-210,""y"":200},{""src"":""images/sort/27.png"",""x"":721.4,""y"":140},{""src"":""images/sort/28.png"",""x"":451.4,""y"":230},{""src"":""images/sort/29.png"",""x"":531.4,""y"":230},{""src"":""images/sort/30.png"",""x"":591.4,""y"":150}]","[{""src"":""images/sort/horizon_2.png"",""x"":-3,""y"":211},{""src"":""images/sort/30.png"",""x"":58,""y"":79},{""src"":""images/sort/18.png"",""x"":240,""y"":89},{""src"":""images/sort/19.png"",""x"":40,""y"":163},{""src"":""images/sort/7.png"",""x"":172,""y"":220}]","[{""src"":""images/sort/horizon_2.png"",""x"":-2,""y"":197},{""src"":""images/sort/1.png"",""x"":-100,""y"":0},{""src"":""images/sort/2.png"",""x"":-200,""y"":0},{""src"":""images/sort/3.png"",""x"":-185,""y"":60},{""src"":""images/sort/4.png"",""x"":-285,""y"":60},{""src"":""images/sort/5.png"",""x"":-20,""y"":150},{""src"":""images/sort/6.png"",""x"":-40,""y"":150},{""src"":""images/sort/7.png"",""x"":172,""y"":220},{""src"":""images/sort/8.png"",""x"":-130,""y"":150},{""src"":""images/sort/9.png"",""x"":-180,""y"":150},{""src"":""images/sort/10.png"",""x"":-250,""y"":150},{""src"":""images/sort/11.png"",""x"":-270,""y"":150},{""src"":""images/sort/12.png"",""x"":-300,""y"":150},{""src"":""images/sort/13.png"",""x"":721,""y"":0},{""src"":""images/sort/14.png"",""x"":451,""y"":120},{""src"":""images/sort/15.png"",""x"":536,""y"":130},{""src"":""images/sort/16.png"",""x"":531,""y"":180},{""src"":""images/sort/17.png"",""x"":581,""y"":0},{""src"":""images/sort/18.png"",""x"":240,""y"":89},{""src"":""images/sort/19.png"",""x"":40,""y"":163},{""src"":""images/sort/20.png"",""x"":-65,""y"":200},{""src"":""images/sort/21.png"",""x"":-90,""y"":200},{""src"":""images/sort/22.png"",""x"":-115,""y"":200},{""src"":""images/sort/23.png"",""x"":-140,""y"":200},{""src"":""images/sort/24.png"",""x"":-165,""y"":200},{""src"":""images/sort/25.png"",""x"":-190,""y"":200},{""src"":""images/sort/26.png"",""x"":-210,""y"":200},{""src"":""images/sort/27.png"",""x"":721,""y"":140},{""src"":""images/sort/28.png"",""x"":451,""y"":230},{""src"":""images/sort/29.png"",""x"":531,""y"":230},{""src"":""images/sort/30.png"",""x"":58,""y"":79}]",""
"176","","null","video-button-response","175","645848","0.0-46.0-0.0",1,"en-US","US","","","","","null","","","","","","","","","","","","","","","","","","","","",""
"177","","2537.545000013779","html-button-response","176","648387","0.0-47.0",1,"en-US","US","<div class='slide' id='finished'><p>你完成了全部任务! 感谢你对我们研究的参与！</p><p>我们的研究内容是关于人们如何在思考过程中结合背景信息, 并且这一能力又是如何在童年期发展的。感谢你的帮助！</p>","","","","0","","","","","","","","","","","","","","","","","","","","",""
